Trial Number, Condition, Response, Correctness, RT
1,0,B,1,-25.20105
2,0,0,0,-14.83493
3,0,A,1,-11.17719
4,0,B,1,-14.74249
5,0,B,0,-11.16556
6,0,0,0,-9.005341
7,0,B,0,-19.95532
8,0,A,0,-6.86084
9,0,B,0,-15.38293
10,1,A,0,-7.669678
11,1,A,0,-20.53851
12,1,A,1,-4.298645
13,1,A,0,-8.803955
14,1,B,0,-12.17236
15,1,B,0,-7.824707
16,1,A,1,-16.99792
17,1,A,0,-3.959778
18,1,B,0,-6.44397

