Trial Number, Condition, Response, Correctness, RT
1,0,A,0,-8.339828
2,0,A,0,-10.04501
3,0,A,1,-10.25064
4,0,B,1,-12.19661
5,0,B,0,-6.825287
6,0,A,1,-6.744705
7,0,B,0,-6.579147
8,0,A,0,-6.486313
9,0,B,0,-7.187225
10,1,A,0,-5.374725
11,1,A,0,-4.458908
12,1,B,0,-6.284302
13,1,A,0,-13.83136
14,1,B,0,-8.145172
15,1,B,0,-5.902039
16,1,0,0,-12.73096
17,1,A,0,-3.434662
18,1,B,0,-2.848938

