Trial Number, Condition, Response, Correctness, RT
1,0,A,0,-8.5462
2,0,A,0,-13.83917
3,0,B,0,-7.895422
4,0,A,0,-13.82077
5,0,B,0,-11.09736
6,0,B,0,-7.8564
7,0,A,1,-9.7854
8,0,A,0,-7.178726
9,0,A,1,-5.760483
10,1,A,0,-4.197289
11,1,B,1,-6.849403
12,1,B,0,-6.024033
13,1,A,0,-4.498337
14,1,B,0,-9.032486
15,1,B,0,-4.764954
16,1,B,0,-16.41158
17,1,A,0,-3.78746
18,1,B,0,-4.99649

