Trial Number, Condition, Response, Correctness, RT
1,0,B,1,-11.36979
2,0,A,0,-13.50699
3,0,B,0,-10.04928
4,0,B,1,-12.65076
5,0,A,1,-10.73743
6,0,B,0,-7.395065
7,0,B,0,-12.34239
8,0,A,0,-7.562668
9,0,B,0,-8.604797
10,1,A,0,-7.523315
11,1,A,0,-5.210312
12,1,B,0,-9.067764
13,1,A,0,-12.5574
14,1,B,0,-8.471344
15,1,B,0,-7.701599
16,1,A,1,-14.09987
17,1,A,0,-4.291901
18,1,B,0,-4.550568

