Trial Number, Condition, Response, Correctness, RT
1,0,A,0,-9.516968
2,0,B,1,-15.5195
3,0,A,1,-10.85297
4,0,A,0,-19.8269
5,0,B,0,-15.60599
6,0,A,1,-12.36304
7,0,B,0,-14.8045
8,0,A,0,-10.89685
9,0,B,0,-11.66248
10,1,A,0,-8.024323
11,1,A,0,-11.00949
12,1,B,0,-10.82907
13,1,A,0,-14.86414
14,1,A,1,-9.85498
15,1,B,0,-8.366058
16,1,B,0,-11.88522
17,1,A,0,-9.037872
18,1,B,0,-5.496948

