Trial Number, Condition, Response, Correctness, RT
1,0,A,1,-6.918686
2,0,A,1,-8.633373
3,0,A,0,-8.321007
4,0,A,1,-9.950348
5,0,A,0,-14.64756
6,0,A,0,-11.44889
7,0,B,1,-12.61081
8,0,B,0,-9.923965
9,0,A,0,-4.606827
10,1,A,1,-3.183563
11,1,A,1,-5.851532
12,1,B,1,-4.891449
13,1,A,1,-2.724884
14,1,A,0,-7.898102
15,1,B,1,-4.822601
16,1,A,0,-11.67311
17,1,A,1,-2.944977
18,1,B,1,-7.807343

