Trial Number, Condition, Response, Correctness, RT
1,0,B,1,-12.01825
2,0,B,1,-11.5325
3,0,A,1,-11.17261
4,0,B,1,-14.50143
5,0,B,0,-15.45929
6,0,A,1,-11.40189
7,0,A,1,-12.8801
8,0,A,0,-9.064911
9,0,B,0,-9.579315
10,1,A,0,-8.045135
11,1,B,1,-7.664001
12,1,B,0,-11.45438
13,1,A,0,-13.93137
14,1,A,1,-11.47571
15,1,B,0,-8.791931
16,1,B,0,-10.31104
17,1,A,0,-4.178345
18,1,B,0,-8.20636

