Trial Number, Condition, Response, Correctness, RT
1,0,B,1,-15.85019
2,0,0,0,-14.4523
3,0,A,1,-10.392
4,0,A,0,-14.55649
5,0,A,1,-14.31989
6,0,0,0,-14.87051
7,0,0,0,-14.12366
8,0,B,1,-11.92056
9,0,B,0,-13.20709
10,1,B,1,-11.26013
11,1,A,0,-13.17114
12,1,B,0,-11.37628
13,1,A,0,-13.90259
14,1,A,1,-13.84296
15,1,B,0,-9.752869
16,1,0,0,-12.33649
17,1,A,0,-11.76373
18,1,B,0,-9.333252

