Trial Number, Condition, Response, Correctness, RT
1,0,0,0,-6.505859
2,0,A,0,-22.64136
3,0,B,0,-19.41721
4,0,B,1,-17.39642
5,0,A,1,-14.93723
6,0,B,0,-10.79419
7,0,B,0,-14.27304
8,0,A,0,-11.26718
9,0,B,0,-9.795807
10,1,A,0,-10.05121
11,1,A,0,-6.524231
12,1,B,0,-8.05896
13,1,A,0,-16.41266
14,1,B,0,-17.34961
15,1,B,0,-10.19904
16,1,A,1,-17.99011
17,1,A,0,-6.731079
18,1,B,0,-12.6723

