Trial Number, Condition, Response, Correctness, RT
1,0,A,0,-13.7836
2,0,B,1,-19.91821
3,0,A,1,-14.27975
4,0,B,1,-12.20303
5,0,A,1,-13.34964
6,0,B,0,-8.173309
7,0,A,1,-29.12033
8,0,A,0,-9.206757
9,0,0,0,-10.01474
10,1,A,0,-8.597992
11,1,B,1,-21.14114
12,1,B,0,-15.29114
13,1,A,0,-26.47751
14,1,B,0,-13.56219
15,1,B,0,-10.84763
16,1,0,0,-24.73615
17,1,A,0,-6.648071
18,1,A,1,-7.185852

