Trial Number, Condition, Response, Correctness, RT
1,0,A,0,-9.451202
2,0,A,0,-11.4671
3,0,B,0,-11.06577
4,0,B,1,-14.09421
5,0,B,0,-13.05872
6,0,B,0,-8.744904
7,0,A,1,-17.76102
8,0,A,0,-10.66302
9,0,B,0,-8.564941
10,1,A,0,-13.19006
11,1,A,0,-12.20239
12,1,B,0,-10.55597
13,1,A,0,-16.30072
14,1,B,0,-12.72131
15,1,B,0,-8.560608
16,1,B,0,-13.82806
17,1,A,0,-9.9245
18,1,B,0,-13.81293

